Here	are	the	results	for	Channel	1	(nasal):	time	-	pitch(Hz)	-	Amplitude(dB)	-	RMSqIntensity(Pa)
0.27	--undefined--	40.855	0.002206933		0.27	--undefined--	44.249	0.003262016		0.596461207				
0.28	--undefined--	53.762	0.009753117		0.28	--undefined--	57.89	0.015685919		0.616608228				
0.29	--undefined--	63.594	0.03024859		0.29	255	67.416	0.046970645		0.608276493				
0.3	--undefined--	68.879	0.055587519		0.3	259.259	72.44	0.083754594		0.60107165				
0.31	--undefined--	72.064	0.080212612		0.31	248.074	75.102	0.113791047		0.586540726				
0.32	210.149	74.668	0.108246208		0.32	214.924	77.119	0.143540217		0.570087197				
0.33	209.266	76.015	0.126415434		0.33	213.72	77.962	0.158168564		0.555788678				
0.34	208.331	77.137	0.143838463		0.34	213.615	77.995	0.158770519		0.524672196				
0.35	205.853	78.523	0.168724626		0.35	206.528	77.544	0.150739842		0.471851669				
0.36	203.367	80.418	0.209855248		0.36	203.407	76.321	0.130940973		0.384220731				
0.37	203.342	83.171	0.288122111		0.37	203.032	75.118	0.114000798		0.283497397				
0.38	199.462	85.089	0.359316236		0.38	198.97	74.71	0.108773449		0.232377367				
0.39	196.749	85.653	0.383415467		0.39	196.364	74.61	0.107531174		0.21902823				
0.4	193.704	85.012	0.356143844		0.4	193.864	74.186	0.102409634		0.223331932				
0.41	189.997	82.906	0.279456925		0.41	190.166	72.621	0.085525859		0.234328475				
0.42	185.991	78.73	0.17280134		0.42	186.194	69.081	0.056898645		0.247708527				
0.43	--undefined--	71.62	0.076210835		0.43	--undefined--	62.799	0.0276052		0.265904974				
0.44	--undefined--	60.716	0.021718439		0.44	--undefined--	53.549	0.009516721		0.304679767				
0.45	--undefined--	47.203	0.004583315		0.45	--undefined--	44.404	0.003320825		0.420137446				
0.46	--undefined--	44.409	0.003322461		0.46	--undefined--	41.02	0.002249226		0.403688497				
0.47	--undefined--	51.721	0.007710363		0.47	--undefined--	41.76	0.002449327		0.241082835				
0.48	--undefined--	57.029	0.014206537		0.48	--undefined--	45.111	0.003602246		0.202273584				
0.49	--undefined--	60.995	0.022427506		0.49	--undefined--	49.02	0.005649858		0.201224658				
0.5	--undefined--	70.859	0.069823656		0.5	--undefined--	59.274	0.018396234		0.20852706				
0.51	243.136	79.244	0.183322443		0.51	243.519	67.838	0.049312198		0.211972722				
0.52	233.072	83.288	0.292037911		0.52	232.735	72.027	0.079871162		0.214759917				
0.53	224.546	83.266	0.29128223		0.53	220.687	72.283	0.082259432		0.220214879				
0.54	213.471	79.186	0.182118272		0.54	206.168	69.024	0.056522911		0.236853129				
0.55	--undefined--	70.699	0.068545726		0.55	197.691	63.318	0.029305476		0.2994902				
0.56	--undefined--	58.085	0.016042147		0.56	202.962	57.396	0.014819674		0.480194401				
0.57	--undefined--	47.881	0.004955407		0.57	--undefined--	51.117	0.007192176		0.592066439				
0.58	--undefined--	43.693	0.003059726		0.58	--undefined--	44.305	0.003282926		0.517595141				
0.59	--undefined--	40.722	0.002173244		0.59	--undefined--	39.698	0.00193161		0.470567183				
0.6	--undefined--	38.952	0.001772717		0.6	--undefined--	38.037	0.001595485		0.473690363				
0.61	--undefined--	41.723	0.00243882		0.61	--undefined--	37.969	0.001582957		0.393596406				
0.62	--undefined--	50.903	0.007017376		0.62	--undefined--	40.638	0.002152314		0.234720475				
0.63	--undefined--	56.604	0.013527605		0.63	--undefined--	45.324	0.003691558		0.214386605				
0.64	--undefined--	58.707	0.017232897		0.64	--undefined--	47.448	0.004714419		0.214806167				
0.65	--undefined--	66.647	0.042990818		0.65	--undefined--	54.924	0.01114866		0.205924772				
0.66	261.307	75.179	0.114808791		0.66	261.65	63.615	0.030324937		0.208944793				
0.67	249.368	79.871	0.197047366		0.67	250.698	68.484	0.053119436		0.212336071				
0.68	240.932	81.248	0.230900236		0.68	241.46	70.014	0.063347415		0.215286051				
0.69	235.528	79.894	0.197570662		0.69	234.888	68.909	0.055781263		0.220173037				
0.7	231.243	76.313	0.13082432		0.7	229.444	65.928	0.039575321		0.232250028				
0.71	228.802	70.981	0.070808643		0.71	225.6	61.724	0.024391495		0.256212815				
0.72	218.963	64.529	0.033687865		0.72	219.259	56.437	0.013270944		0.282608194				
0.73	--undefined--	57.972	0.015834581		0.73	--undefined--	49.623	0.006055855		0.276643891				
0.74	--undefined--	54.171	0.010223411		0.74	--undefined--	43.55	0.003009581		0.227430157				
0.75	--undefined--	52.223	0.00816886		0.75	--undefined--	42.407	0.002638569		0.244143972				
0.76	--undefined--	50.348	0.006583331		0.76	--undefined--	41.984	0.002513146		0.276276869				
0.77	--undefined--	48.541	0.005346674		0.77	--undefined--	40.104	0.002024071		0.274608786				
0.78	--undefined--	47.425	0.004701973		0.78	--undefined--	38.019	0.001592079		0.252949824				
0.79	--undefined--	46.13	0.004050602		0.79	--undefined--	36.772	0.001379167		0.254001076				
0.8	--undefined--	42.788	0.002756942		0.8	--undefined--	35.186	0.001148998		0.294166839				
0.81	--undefined--	38.252	0.001635393		0.81	--undefined--	34.844	0.001104718		0.403165364				
0.82	--undefined--	36.745	0.001374911		0.82	--undefined--	35.175	0.001147607		0.454944988				
0.83	--undefined--	37.197	0.001448289		0.83	--undefined--	35.732	0.001223637		0.457960748				
0.84	--undefined--	37.492	0.001498453		0.84	--undefined--	36.169	0.001286746		0.461994373				
0.85	--undefined--	37.674	0.00153011		0.85	--undefined--	36.237	0.001296838		0.458741338				
0.86	--undefined--	38.28	0.001640705		0.86	--undefined--	36.341	0.001312478		0.444428304				
0.87	--undefined--	41.477	0.002370747		0.87	--undefined--	36.393	0.0013203		0.357703454				
0.88	--undefined--	49.675	0.006092099		0.88	--undefined--	39.221	0.00182836		0.23084012				
0.89	--undefined--	58.291	0.016427656		0.89	--undefined--	46.415	0.004185815		0.20306211				
0.9	--undefined--	67.772	0.048934007		0.9	--undefined--	55.893	0.01246479		0.203013592				
0.91	--undefined--	74.318	0.103976341		0.91	--undefined--	62.483	0.026619291		0.203829874				
0.92	--undefined--	77.299	0.146543156		0.92	--undefined--	65.509	0.03771162		0.204671059				
0.93	147.718	77.224	0.14528529		0.93	144.883	65.546	0.037873845		0.206781087				
0.94	143.53	74.868	0.110767947		0.94	143.288	63.574	0.030179644		0.214119612				
0.95	137.575	70.915	0.070269666		0.95	137.56	60.501	0.021188293		0.231672489				
0.96	131.421	65.125	0.03608104		0.96	--undefined--	55.94	0.012531597		0.257784761				
0.97	--undefined--	56.565	0.013466876		0.97	--undefined--	48.926	0.005589178		0.293301959				
0.98	--undefined--	45.016	0.003563077		0.98	--undefined--	40.901	0.002218508		0.383719715				
0.99	--undefined--	38.338	0.001651625		0.99	--undefined--	38.463	0.001675683		0.503615143				
1	--undefined--	38.444	0.001671976		1	--undefined--	38.127	0.001612055		0.490876857				
1.01	--undefined--	38.63	0.001708125		1.01	--undefined--	38.166	0.001619289		0.486651008				
1.02	--undefined--	38.619	0.001706044		1.02	--undefined--	37.913	0.001572758		0.479674553				
1.03	--undefined--	44.388	0.003314719		1.03	--undefined--	38.065	0.001600603		0.325635401				
1.04	--undefined--	52.978	0.008910596		1.04	--undefined--	42.617	0.002703087		0.232750181				
1.05	--undefined--	57.865	0.01564206		1.05	--undefined--	47.067	0.004511877		0.223870753				
1.06	--undefined--	60.447	0.02105607		1.06	--undefined--	49.567	0.006017248		0.222257494				
1.07	--undefined--	65.862	0.039275522		1.07	--undefined--	54.195	0.010251192		0.206983083				
1.08	--undefined--	70.912	0.070247882		1.08	--undefined--	58.998	0.017821333		0.202355992				
1.09	--undefined--	73.535	0.095007661		1.09	--undefined--	61.74	0.024435557		0.204578856				
1.1	--undefined--	74.25	0.103166741		1.1	--undefined--	62.72	0.027354944		0.209581606				
1.11	--undefined--	73.128	0.090667568		1.11	--undefined--	61.954	0.02504657		0.216452117				
1.12	--undefined--	69.452	0.059381633		1.12	--undefined--	59.023	0.017871554		0.231337434				
1.13	--undefined--	62.336	0.026170407		1.13	--undefined--	53.523	0.009487885		0.266077947				
1.14	--undefined--	51.465	0.007486907		1.14	--undefined--	46.093	0.004033249		0.350103697				
1.15	--undefined--	43.028	0.002834265		1.15	--undefined--	40.947	0.002230489		0.440394279				
1.16	--undefined--	44.759	0.003459156		1.16	--undefined--	39.749	0.001942992		0.359670182				
1.17	--undefined--	53.646	0.009623323		1.17	--undefined--	42.944	0.002807004		0.225819006				
1.18	--undefined--	60.694	0.021663372		1.18	--undefined--	48.689	0.005438458		0.200667556				
1.19	--undefined--	66.932	0.044424815		1.19	--undefined--	53.941	0.009955762		0.183075694				
1.2	--undefined--	72.157	0.081071658		1.2	--undefined--	58.679	0.017178251		0.174842408				
1.21	--undefined--	75.212	0.115243074		1.21	--undefined--	61.643	0.024163463		0.173330917				
1.22	--undefined--	76.434	0.132650371		1.22	--undefined--	62.921	0.027994111		0.174261268				
1.23	--undefined--	76.47	0.133200778		1.23	--undefined--	63.133	0.028685163		0.177193661				
1.24	--undefined--	75.667	0.121440197		1.24	--undefined--	62.574	0.026899309		0.181336111				
1.25	--undefined--	74.803	0.109942825		1.25	--undefined--	61.887	0.024852956		0.184374878				
1.26	--undefined--	74.396	0.104911824		1.26	--undefined--	61.5	0.023771387		0.184727957				
1.27	--undefined--	74.249	0.103157238		1.27	--undefined--	61.36	0.023388873		0.184824902				
1.28	126.133	74.085	0.101224448		1.28	126.437	61.42	0.023551089		0.188747645				
1.29	136.631	74.128	0.101726197		1.29	136.36	61.774	0.02453187		0.194299429				
1.3	123.078	73.926	0.099382311		1.3	122.882	61.83	0.024691017		0.199003421				
1.31	128.379	72.873	0.088039789		1.31	128.888	61.087	0.02266661		0.20474526				
1.32	127.121	71.049	0.071366351		1.32	127.343	59.621	0.019146913		0.211537093				
1.33	126.332	68.321	0.052127472		1.33	126.151	57.375	0.014783004		0.220937065				
1.34	122.063	64.841	0.034920839		1.34	121.534	54.704	0.010870609		0.237393874				
1.35	--undefined--	60.471	0.021114294		1.35	--undefined--	51.206	0.007266225		0.256028614				
1.36	--undefined--	54.599	0.010739626		1.36	--undefined--	45.981	0.003981761		0.27047455				
1.37	--undefined--	48.935	0.005594741		1.37	--undefined--	40.909	0.002220557		0.28412953				
1.38	--undefined--	46.94	0.004446822		1.38	--undefined--	39.48	0.001883863		0.297576453				
1.39	--undefined--	46.148	0.004058902		1.39	--undefined--	38.444	0.001671984		0.291749594				
1.4	--undefined--	44.067	0.003194406		1.4	--undefined--	37.863	0.001563765		0.328648297				
1.41	--undefined--	41.884	0.00248439		1.41	--undefined--	38.762	0.001734387		0.411111319				
1.42	--undefined--	42.686	0.002724798		1.42	--undefined--	39.4	0.00186641		0.406518254				
1.43	--undefined--	44.034	0.0031823		1.43	--undefined--	39.437	0.001874515		0.370690811				
1.44	--undefined--	44.761	0.003459848		1.44	--undefined--	39.472	0.001881996		0.352312056				
1.45	--undefined--	46.54	0.00424661		1.45	--undefined--	40.377	0.002088811		0.329703548				
1.46	--undefined--	49.768	0.006157596		1.46	--undefined--	42.072	0.002538779		0.291935305				
1.47	--undefined--	53.932	0.009945549		1.47	--undefined--	43.357	0.002943776		0.228388693				
1.48	--undefined--	58.981	0.017785436		1.48	--undefined--	43.477	0.002984484		0.143692622				
1.49	--undefined--	62.216	0.025812011		1.49	--undefined--	42.852	0.002777501		0.097151032				
1.5	--undefined--	61.799	0.024602827		1.5	--undefined--	41.685	0.002428214		0.089830573				
1.51	--undefined--	57.851	0.015616268		1.51	--undefined--	40.83	0.002200474		0.123505969				
1.52	--undefined--	52.997	0.008930842		1.52	--undefined--	41.651	0.00241881		0.213117581				
1.53	--undefined--	49.643	0.006070173		1.53	--undefined--	41.814	0.002464386		0.288753775				
1.54	--undefined--	47.35	0.004661582		1.54	--undefined--	41.995	0.002516274		0.350560671				
1.55	--undefined--	46.663	0.004307026		1.55	--undefined--	42.085	0.002542666		0.371208834				
1.56	--undefined--	45.246	0.003658709		1.56	--undefined--	40.951	0.002231313		0.378829273				
1.57	--undefined--	42.534	0.002677524		1.57	--undefined--	38.908	0.001763695		0.397119585				
1.58	--undefined--	40.163	0.002037978		1.58	--undefined--	37.59	0.001515358		0.426460552				
1.59	--undefined--	39.698	0.001931613		1.59	--undefined--	37.573	0.001512531		0.439160267				
1.6	--undefined--	39.572	0.001903861		1.6	--undefined--	38.213	0.001628109		0.460963354				
1.61	--undefined--	38.795	0.00174101		1.61	--undefined--	38.78	0.001737847		0.499545337				
1.62	--undefined--	38.145	0.0016154		1.62	--undefined--	38.458	0.001674606		0.50899787				
1.63	--undefined--	38.529	0.001688423		1.63	--undefined--	37.67	0.001529396		0.475289724				
1.64	--undefined--	39.014	0.001785474		1.64	--undefined--	37.374	0.001478205		0.452925918				
1.65	--undefined--	38.823	0.001746573		1.65	--undefined--	38	0.001588644		0.476324122				
1.66	--undefined--	38.327	0.001649661		1.66	--undefined--	38.291	0.001642774		0.498954001				
1.67	--undefined--	38.063	0.001600143		1.67	--undefined--	37.923	0.001574652		0.495985387				
1.68	--undefined--	37.801	0.00155272		1.68	--undefined--	37.331	0.001470917		0.486472743				
1.69	--undefined--	38.538	0.001690139		1.69	--undefined--	37.008	0.001417139		0.45607093				
1.7	--undefined--	49.001	0.005637177		1.7	--undefined--	40.203	0.002047186		0.26640934				
1.71	--undefined--	59.105	0.018042563		1.71	--undefined--	48.155	0.005114247		0.220852837				
1.72	--undefined--	69.086	0.056925936		1.72	--undefined--	57.582	0.015139611		0.210081122				
1.73	--undefined--	77.941	0.157789108		1.73	--undefined--	66.31	0.041354253		0.207660715				
1.74	164.607	83.051	0.28418383		1.74	165.275	71.395	0.074264377		0.207183007				
1.75	167.949	84.772	0.346445903		1.75	168.356	73.101	0.090381173		0.20690378				
1.76	167.085	83.526	0.300149498		1.76	167.976	71.787	0.077694535		0.205625941				
1.77	157.618	79.46	0.187951315		1.77	156.349	67.505	0.04745245		0.201578978				
1.78	147.042	72.501	0.084351491		1.78	--undefined--	60.268	0.020627073		0.196488429				
1.79	--undefined--	62.169	0.025674465		1.79	--undefined--	50.569	0.006752651		0.208240865				
1.8	--undefined--	48.586	0.005374272		1.8	--undefined--	42.854	0.002777994		0.340763399				
1.81	--undefined--	41.322	0.002328789		1.81	--undefined--	39.866	0.001969467		0.458201351				
1.82	--undefined--	43.648	0.003043971		1.82	--undefined--	39.059	0.001794656		0.370901951				
1.83	--undefined--	52.035	0.007993846		1.83	--undefined--	42.713	0.00273319		0.254794519				
1.84	--undefined--	58.589	0.017000875		1.84	--undefined--	48.213	0.005148662		0.232450087				
1.85	--undefined--	60.996	0.022430289		1.85	--undefined--	50.757	0.006900436		0.235263064				
1.86	--undefined--	60.336	0.020787955		1.86	--undefined--	49.802	0.006182105		0.229221043				
1.87	--undefined--	61.546	0.023897109		1.87	--undefined--	49.382	0.005890151		0.197740606				
1.88	--undefined--	69.006	0.056407019		1.88	--undefined--	57.263	0.014594284		0.205549522				
1.89	--undefined--	75.976	0.125839537		1.89	--undefined--	64.219	0.032508389		0.205297219				
1.9	151.783	80.041	0.200953137		1.9	151.429	68.046	0.050506525		0.200853388				
1.91	153.155	81.65	0.241845899		1.91	153.221	69.476	0.059540109		0.197554324				
1.92	149.854	81.121	0.227546391		1.92	149.537	68.971	0.056182671		0.198015216				
1.93	145.153	78.528	0.168818591		1.93	144.301	66.692	0.043212773		0.203803683				
1.94	138.401	73.772	0.097640611		1.94	137.997	62.544	0.026806125		0.215402394				
1.95	--undefined--	66.964	0.044588492		1.95	--undefined--	56.48	0.01333664		0.230239266				
1.96	--undefined--	60.301	0.020704225		1.96	--undefined--	49.869	0.006230196		0.231309824				
1.97	--undefined--	55.293	0.011632743		1.97	--undefined--	44.602	0.003397103		0.226023823				
1.98	--undefined--	51.792	0.007773525		1.98	--undefined--	41.898	0.002488507		0.242496494				
1.99	--undefined--	50.374	0.00660309		1.99	--undefined--	41.128	0.002277292		0.256440747				
2	--undefined--	49.009	0.005642483		2	--undefined--	40.238	0.002055514		0.267019321				
2.01	--undefined--	46.983	0.004468553		2.01	--undefined--	39.235	0.001831452		0.290706403				
2.02	--undefined--	44.521	0.003365675		2.02	--undefined--	38.732	0.001728442		0.339301599				
2.03	--undefined--	42.855	0.002778235		2.03	--undefined--	38.461	0.001675296		0.376172519				
2.04	--undefined--	41.885	0.00248465		2.04	--undefined--	38.078	0.00160296		0.392150867				
2.05	--undefined--	41.698	0.00243193		2.05	--undefined--	37.409	0.001484243		0.379003396				
2.06	--undefined--	47.521	0.004754093		2.06	--undefined--	39.198	0.001823552		0.277234769				
2.07	--undefined--	53.061	0.008996868		2.07	--undefined--	42.96	0.002812163		0.238136676				
2.08	--undefined--	55.845	0.012395833		2.08	--undefined--	44.967	0.003543195		0.222296782				
2.09	--undefined--	59.18	0.018197357		2.09	--undefined--	47.859	0.004943081		0.213612252				
2.1	--undefined--	67.296	0.04632577		2.1	--undefined--	56.045	0.012685357		0.214965504				
2.11	--undefined--	73.612	0.095857662		2.11	--undefined--	62.318	0.026117147		0.214119185				
2.12	154.727	76.563	0.134636392		2.12	--undefined--	65.306	0.036842375		0.214850946				
2.13	143.776	77.355	0.147499366		2.13	142.923	66.56	0.042562996		0.223942267				
2.14	139.753	77.408	0.14840378		2.14	140.124	67.391	0.046833373		0.239879409				
2.15	138.176	77.13	0.143716246		2.15	138.54	67.609	0.048028109		0.250479912				
2.16	138.09	76.689	0.136613896		2.16	138.107	67.28	0.046243641		0.252894367				
2.17	138.717	76.337	0.131178368		2.17	138.645	66.935	0.044442722		0.253060279				
2.18	138.388	75.971	0.125767047		2.18	138.448	66.64	0.042957932		0.254603272				
2.19	138.602	75.609	0.120633278		2.19	138.547	66.376	0.041670976		0.256746048				
2.2	137.44	75.152	0.114451038		2.2	137.784	66.044	0.040106939		0.259494463				
2.21	136.325	74.733	0.109069163		2.21	136.563	65.616	0.038178314		0.259279921				
2.22	136.641	74.813	0.110076957		2.22	136.515	65.569	0.037974028		0.256492912				
2.23	136.558	75.062	0.113277446		2.23	136.507	65.899	0.039442126		0.258265037				
2.24	136.383	74.863	0.110707485		2.24	136.409	65.963	0.039734282		0.26411736				
2.25	138.161	74.466	0.105760496		2.25	137.892	65.725	0.038660829		0.267694742				
2.26	140.413	74.235	0.102987765		2.26	139.759	65.228	0.036513535		0.261743329				
2.27	143.332	74.359	0.104467783		2.27	142.639	64.601	0.033970406		0.2453832				
2.28	145.225	74.914	0.111362183		2.28	145.02	64.383	0.033126745		0.229268397				
2.29	149.495	75.656	0.121287995		2.29	149.397	64.55	0.033771853		0.217798826				
2.3	152.035	76.556	0.13452574		2.3	151.942	64.903	0.03517012		0.207253847				
2.31	155.989	77.689	0.153277402		2.31	156.103	65.59	0.038066065		0.198941024				
2.32	159.344	78.84	0.174996752		2.32	159.442	66.509	0.042315435		0.194721867				
2.33	162.609	79.913	0.19800147		2.33	162.609	67.521	0.047540992		0.193616173				
2.34	166.079	80.576	0.213717123		2.34	166.231	68.285	0.051916298		0.195443396				
2.35	166.515	79.842	0.196398313		2.35	166.279	67.761	0.048875344		0.199268622				
2.36	164.767	76.7	0.13677874		2.36	163.615	64.877	0.035064434		0.204049036				
2.37	--undefined--	70.305	0.065504088		2.37	--undefined--	59.076	0.017981044		0.215380199				
2.38	--undefined--	59.948	0.019879823		2.38	--undefined--	51.773	0.007756651		0.280667176				
2.39	--undefined--	47.783	0.004899989		2.39	--undefined--	46.897	0.00442463		0.47451055				
2.4	--undefined--	43.166	0.002879602		2.4	--undefined--	43.128	0.002866923		0.498896816				
2.41	--undefined--	41.022	0.002249711		2.41	--undefined--	39.66	0.001923281		0.460887731				
2.42	--undefined--	46.59	0.004270864		2.42	--undefined--	39.09	0.001801023		0.296616749				
2.43	--undefined--	60.121	0.020281503		2.43	--undefined--	47.785	0.004900804		0.194613005				
2.44	--undefined--	71.917	0.078860636		2.44	--undefined--	59.302	0.018456226		0.189650857				
2.45	--undefined--	78.99	0.178040809		2.45	--undefined--	66.429	0.041925473		0.190599543				
2.46	173.432	82.245	0.258992195		2.46	175.182	69.576	0.060231881		0.188682138				
2.47	169.701	82.86	0.278004846		2.47	170.935	69.714	0.061196352		0.180413136				
2.48	165.64	82.391	0.263374216		2.48	165.439	68.447	0.052888174		0.167228782				
2.49	164.791	82.147	0.256097067		2.49	164.666	67.75	0.048809893		0.160081267				
2.5	163.884	82.111	0.255024372		2.5	163.842	67.678	0.048410401		0.159541374				
2.51	163.657	81.986	0.251371713		2.51	163.648	67.598	0.047967257		0.160243942				
2.52	163.864	81.865	0.247915762		2.52	163.945	67.534	0.047613112		0.16111154				
2.53	164.688	81.83	0.246910581		2.53	164.763	67.631	0.048145778		0.163174853				
2.54	165.628	81.916	0.249373417		2.54	165.653	67.967	0.050046775		0.167145625				
2.55	166.285	82.042	0.253009897		2.55	166.24	68.475	0.053063528		0.173368623				
2.56	166.133	81.607	0.240643641		2.56	166.074	68.422	0.052738507		0.179760449				
2.57	163.758	79.946	0.198765537		2.57	163.434	67.017	0.044862135		0.184142198				
2.58	162.553	77.849	0.156119962		2.58	162.653	65.217	0.036464229		0.189341757				
2.59	166.656	77.899	0.157035962		2.59	166.729	65.782	0.038916661		0.198602398				
2.6	171.622	79.668	0.192497092		2.6	171.68	67.917	0.049758761		0.205397559				
2.61	175.396	81.276	0.231641446		2.61	175.339	69.754	0.061477417		0.209735451				
2.62	178.069	82.184	0.257162712		2.62	178.09	70.881	0.06999356		0.21394534				
2.63	179.602	82.35	0.262142219		2.63	179.533	71.315	0.073580947		0.21917149				
2.64	180.156	81.711	0.24354589		2.64	180.154	70.911	0.070240323		0.223847702				
2.65	179.586	80.021	0.200479578		2.65	179.716	69.398	0.059013653		0.227418852				
2.66	176.892	77.009	0.141742288		2.66	176.693	66.616	0.042836202		0.232075806				
2.67	172.729	72.498	0.084323767		2.67	171.693	62.555	0.026838917		0.241438189				
2.68	169.673	66.458	0.042066951		2.68	168.594	57.511	0.015016298		0.26305963				
2.69	--undefined--	58.949	0.017721198		2.69	--undefined--	52.492	0.00842608		0.322254583				
2.7	--undefined--	51.989	0.007951701		2.7	--undefined--	48.607	0.00538746		0.403882964				
2.71	--undefined--	48.848	0.005538972		2.71	--undefined--	44.874	0.003505295		0.387570928				
2.72	--undefined--	47.978	0.005011233		2.72	--undefined--	42.065	0.002536794		0.336087062				
2.73	--undefined--	49.214	0.005777214		2.73	--undefined--	40.979	0.002238512		0.279264975				
2.74	--undefined--	50.975	0.007075726		2.74	--undefined--	41.463	0.002366996		0.250668852				
2.75	--undefined--	51.894	0.007865765		2.75	--undefined--	42.186	0.002572495		0.246448624				
2.76	--undefined--	51.935	0.007903141		2.76	--undefined--	42.616	0.002702896		0.25484502				
2.77	--undefined--	52.893	0.008824262		2.77	--undefined--	44.149	0.003224749		0.267636021				
2.78	--undefined--	61.095	0.022686738		2.78	--undefined--	52.093	0.00804746		0.26184057				
2.79	197.736	70.37	0.065997432		2.79	--undefined--	61.065	0.02260957		0.25516685				
2.8	191.986	76.249	0.129857721		2.8	193.302	66.747	0.043488785		0.250877771				
2.81	187.826	79.68	0.192760377		2.81	188.347	70.035	0.063497865		0.247788576				
2.82	188.787	81.605	0.240589632		2.82	188.794	71.922	0.078908535		0.246976487				
2.83	191.276	82.667	0.271878291		2.83	191.108	73.007	0.089409016		0.247473449				
2.84	193.869	83.257	0.290974923		2.84	193.734	73.605	0.095782626		0.247655478				
2.85	195.896	83.578	0.301952023		2.85	195.868	73.925	0.099377398		0.247620515				
2.86	197.181	83.672	0.305226464		2.86	197.17	74.025	0.100526637		0.24775322				
2.87	197.089	83.563	0.301408847		2.87	197.179	73.924	0.099367837		0.247938169				
2.88	196.019	83.266	0.291292156		2.88	196.214	73.658	0.096365889		0.248584778				
2.89	193.917	82.797	0.275967466		2.89	194.129	73.243	0.091868492		0.249753973				
2.9	190.816	82.176	0.256940719		2.9	191.152	72.688	0.086188464		0.251183718				
2.91	187.411	81.419	0.235503196		2.91	187.768	72.006	0.079676563		0.252797207				
2.92	183.202	80.529	0.21256618		2.92	183.562	71.19	0.07253132		0.254408825				
2.93	177.724	79.501	0.188839613		2.93	178.408	70.18	0.064571871		0.254810357				
2.94	171.042	78.376	0.165888748		2.94	171.75	68.934	0.055938905		0.252172822				
2.95	163.455	77.184	0.144613073		2.95	163.435	67.7	0.048531157		0.251268997				
2.96	155.429	75.808	0.123426485		2.96	155.196	66.627	0.042892581		0.25789335				
2.97	149.498	73.923	0.09934888		2.97	149.235	65.348	0.037021518		0.271477668				
2.98	144.958	71.516	0.075306287		2.98	144.745	63.94	0.031477926		0.29478071				
2.99	140.982	68.878	0.055582199		2.99	141.115	62.631	0.027076174		0.327567222				
3	138.788	66.254	0.041089852		3	139.136	61.342	0.02334191		0.36227334				
3.01	135.915	63.555	0.030113895		3.01	136.066	59.849	0.019654621		0.394920769				
3.02	135.139	60.76	0.021829944		3.02	135.753	57.984	0.015856729		0.420751623				
3.03	135.894	58.057	0.015990802		3.03	136.652	55.815	0.012352791		0.435823042				
3.04	--undefined--	55.744	0.012253013		3.04	--undefined--	54.075	0.010110129		0.452088942				
3.05	--undefined--	53.769	0.009760927		3.05	--undefined--	54.944	0.011174917		0.533769595				
3.06	--undefined--	51.499	0.007516204		3.06	--undefined--	57.352	0.014745114		0.662364825				
3.07	--undefined--	48.867	0.005550894		3.07	--undefined--	57.398	0.014822083		0.727536428				
3.08	--undefined--	45.895	0.003942601		3.08	--undefined--	54.522	0.010644721		0.729724142				
3.09	--undefined--	42.195	0.002575027		3.09	--undefined--	51.05	0.007137216		0.734867952				
3.1	--undefined--	40.312	0.00207309		3.1	--undefined--	49.58	0.006025974		0.744033436				
3.11	--undefined--	39.691	0.001930128		3.11	--undefined--	48.343	0.005226403		0.730298404				
										0.294565457				
														
4	--undefined--	37.602	0.001517504		4	--undefined--	44.679	0.003427712		0.693136869				
4.01	--undefined--	39.725	0.001937735		4.01	--undefined--	52.928	0.008859768		0.820538581				
4.02	--undefined--	47.965	0.00500338		4.02	184.872	64.042	0.031849879		0.864235078				
4.03	--undefined--	56.414	0.013235289		4.03	189.257	72.367	0.083054312		0.862547059				
4.04	--undefined--	61.189	0.022933401		4.04	--undefined--	76.983	0.141317212		0.860375553				
4.05	--undefined--	62.934	0.028037867		4.05	--undefined--	78.83	0.174801421		0.861772996				
4.06	--undefined--	63.36	0.029447703		4.06	--undefined--	79.712	0.193477762		0.867903369				
4.07	143.59	63.918	0.031398828		4.07	144.54	80.718	0.217242429		0.873718349				
4.08	144.358	66.044	0.040107867		4.08	144.048	81.38	0.234448543		0.853917572				
4.09	148.17	71.568	0.07576171		4.09	143.774	81.501	0.237735514		0.758333712				
4.1	147.598	76.366	0.1316228		4.1	147.405	80.973	0.22370515		0.629573751				
4.11	143.345	78.851	0.175214093		4.11	144.27	80.033	0.200756772		0.533968961				
4.12	142.899	79.545	0.18979381		4.12	142.843	79.057	0.179420615		0.485952343				
4.13	142.627	79.368	0.185968134		4.13	142.617	78.165	0.161915881		0.465430643				
4.14	142.2	79.013	0.17850877		4.14	142.198	77.572	0.151219086		0.458617868				
4.15	142.072	78.789	0.173979128		4.15	141.999	77.285	0.146310402		0.456806696				
4.16	142.241	78.714	0.172472451		4.16	142.173	77.158	0.144186225		0.455336411				
4.17	143.27	78.713	0.172456417		4.17	143.24	77.057	0.142528486		0.452493071				
4.18	144.907	78.733	0.17286108		4.18	144.894	77.022	0.141940148		0.450888164				
4.19	145.573	78.354	0.165465029		4.19	145.51	77.128	0.143691672		0.464785888				
4.2	145.417	76.536	0.134231246		4.2	144.297	77.53	0.150505545		0.528577793				
4.21	142.853	72.228	0.081735347		4.21	145.714	78.319	0.164812164		0.668480339				
4.22	150.071	65.584	0.038038224		4.22	151.073	78.773	0.173657627		0.820316632				
4.23	153.234	61.367	0.02340751		4.23	153.075	78.721	0.172622642		0.880592298				
4.24	155.086	61.162	0.022862811		4.24	155.226	78.55	0.169259374		0.880998588				
4.25	158.679	61.639	0.024152287		4.25	158.596	78.449	0.167294518		0.873843353				
4.26	162.35	62.538	0.026788296		4.26	161.928	78.491	0.168109574		0.862552134				
4.27	165.504	64.554	0.033786015		4.27	165.395	78.671	0.171633055		0.835526393				
4.28	173.384	69.572	0.060202		4.28	170.281	78.967	0.177564652		0.74680217				
4.29	183.192	74.698	0.1086239		4.29	180.857	79.281	0.184116936		0.628941757				
4.3	184.887	77.552	0.150883425		4.3	185.277	79.391	0.186468257		0.552741448				
4.31	188.357	78.475	0.167793788		4.31	188.25	79.094	0.180197931		0.517822468				
4.32	193.412	78.496	0.16820983		4.32	193.081	78.614	0.170493578		0.503371309				
4.33	198.634	78.505	0.168369352		4.33	198.198	78.358	0.165543506		0.495768587				
4.34	203.061	78.565	0.169551003		4.34	202.805	78.4	0.166351101		0.495236853				
4.35	206.091	78.197	0.162519017		4.35	205.66	78.551	0.169268368		0.510171199				
4.36	206.536	76.748	0.137539522		4.36	204.933	78.902	0.17625677		0.561691691				
4.37	203.153	73.573	0.09542477		4.37	202.062	79.995	0.199893405		0.676874715				
4.38	198.556	69.111	0.057090171		4.38	202.856	81.183	0.22919197		0.800580747				
4.39	200.217	66.5	0.042268403		4.39	200.184	81.636	0.241457089		0.851023598				
4.4	195.214	66.225	0.040951284		4.4	194.878	81.485	0.237291973		0.852822007				
4.41	189.099	66.059	0.040175626		4.41	188.507	80.923	0.22241537		0.847003033				
4.42	182.086	65.273	0.036700163		4.42	180.019	79.887	0.197406035		0.843232845				
4.43	171.497	63.417	0.029641543		4.43	167.556	78.447	0.16726476		0.849463716				
4.44	155.161	61.018	0.022488184		4.44	153.652	77.386	0.148022012		0.86811238				
4.45	143.875	60.413	0.02097343		4.45	144.544	77.198	0.144857325		0.873525088				
4.46	138.346	63.289	0.029207822		4.46	137.735	76.931	0.140468501		0.827861532				
4.47	133.922	66.962	0.044580198		4.47	134.594	75.901	0.124762247		0.736745279				
4.48	131.63	68.865	0.055496574		4.48	131.926	74.49	0.106058589		0.656485294				
4.49	129.995	69.387	0.058937328		4.49	130.12	73.398	0.093529301		0.613441129				
4.5	128.043	69.613	0.060489563		4.5	128.077	72.941	0.088735137		0.594641081				
4.51	124.828	69.601	0.06040852		4.51	124.78	72.68	0.08610819		0.587702183				
4.52	124.803	69.104	0.057046929		4.52	124.708	72.085	0.080400533		0.584954654				
4.53	122.532	68.625	0.053988366		4.53	122.57	71.329	0.073705699		0.577205365				
4.54	120.317	68.762	0.054843357		4.54	120.343	71.003	0.070984519		0.564139847				
4.55	119.423	69.388	0.058939586		4.55	119.489	71.289	0.073364861		0.554515459				
4.56	119.86	69.819	0.061938682		4.56	119.69	71.536	0.075476916		0.54926018				
4.57	121.117	69.948	0.062869182		4.57	121.096	71.554	0.07563875		0.546096881				
4.58	121.547	69.918	0.062652844		4.58	121.575	71.408	0.074373827		0.542768982				
4.59	118.814	69.784	0.061695419		4.59	118.851	71.121	0.071954177		0.538379309				
4.6	116.147	69.532	0.059927622		4.6	115.987	70.822	0.06952045		0.537052803				
4.61	110.356	69.25	0.058014183		4.61	110.276	70.521	0.06715541		0.536515364				
4.62	114.159	69.456	0.059406369		4.62	114.09	70.642	0.068093713		0.534067992				
4.63	116.843	69.936	0.062784352		4.63	116.821	71.134	0.072063992		0.534407688				
4.64	117.662	70.1	0.063974772		4.64	117.657	71.463	0.074845005		0.539152323				
4.65	119.425	69.557	0.060099399		4.65	119.536	71.215	0.07274462		0.547594243				
4.66	116.661	68.056	0.050564373		4.66	116.426	70.085	0.063867032		0.558125033				
4.67	115.439	65.347	0.03701674		4.67	114.996	68.095	0.050787999		0.578419791				
4.68	--undefined--	60.705	0.02169014		4.68	113.082	64.945	0.035339652		0.61967002				
4.69	--undefined--	53.466	0.009426314		4.69	--undefined--	60.345	0.020810674		0.688252206				
4.7	--undefined--	45.391	0.003720352		4.7	--undefined--	54.994	0.011239673		0.751313779				
4.71	--undefined--	41.043	0.002255075		4.71	--undefined--	49.006	0.005640376		0.714383001				
4.72	--undefined--	38.829	0.001747783		4.72	--undefined--	42.775	0.002752723		0.611647449				
4.73	--undefined--	37.762	0.001545728		4.73	--undefined--	39.723	0.001937234		0.556202953				
4.74	--undefined--	36.83	0.001388409		4.74	--undefined--	39.205	0.001825031		0.567936812				
4.75	--undefined--	37.408	0.001483928		4.75	--undefined--	39.903	0.001977837		0.571337655				
4.76	--undefined--	38.737	0.00172931		4.76	--undefined--	40.211	0.002049122		0.542320719				
4.77	--undefined--	39.648	0.001920496		4.77	--undefined--	40.505	0.002119755		0.52465921				
4.78	--undefined--	40.635	0.002151601		4.78	--undefined--	42.256	0.002593119		0.546527333				
4.79	--undefined--	47.962	0.005002076		4.79	--undefined--	49.239	0.005794241		0.536686818				
4.8	--undefined--	54.84	0.011042002		4.8	--undefined--	56.259	0.013000462		0.540729206				
4.81	--undefined--	57.267	0.014600879		4.81	--undefined--	59.163	0.018163263		0.554364054				
4.82	--undefined--	55.283	0.011619283		4.82	--undefined--	57.722	0.015386429		0.569747199				
4.83	--undefined--	48.942	0.005598982		4.83	--undefined--	51.864	0.00783854		0.583332252				
4.84	--undefined--	41.657	0.002420422		4.84	--undefined--	43.6	0.003027117		0.555685233				
4.85	--undefined--	40.854	0.002206538		4.85	--undefined--	41.719	0.002437678		0.524884702				
4.86	--undefined--	40.951	0.002231424		4.86	--undefined--	41.756	0.002448174		0.523159076				
4.87	--undefined--	40.159	0.002037023		4.87	--undefined--	40.818	0.002197409		0.518938325				
4.88	--undefined--	39.217	0.001827491		4.88	--undefined--	40.364	0.002085516		0.532970174				
4.89	--undefined--	39.479	0.001883629		4.89	--undefined--	40.792	0.002191025		0.5377204				
4.9	--undefined--	39.399	0.001866292		4.9	--undefined--	40.177	0.002041238		0.522385771				
4.91	--undefined--	38.377	0.001659055		4.91	--undefined--	39.269	0.001838603		0.525666887				
4.92	--undefined--	37.852	0.001561777		4.92	--undefined--	39.686	0.001928921		0.552588904				
4.93	--undefined--	38.165	0.001619086		4.93	--undefined--	40.294	0.002068889		0.560982451				
4.94	--undefined--	37.743	0.001542369		4.94	--undefined--	40.173	0.002040287		0.569490134				
4.95	--undefined--	37.678	0.001530896		4.95	--undefined--	41.038	0.002253784		0.595501917				
4.96	--undefined--	38.311	0.001646659		4.96	--undefined--	41.794	0.002458939		0.598923374				
4.97	--undefined--	38.361	0.001655998		4.97	--undefined--	41.466	0.002367751		0.588443937				
4.98	--undefined--	38.727	0.001727355		4.98	--undefined--	41.021	0.002249544		0.565652831				
4.99	--undefined--	40.095	0.002022031		4.99	--undefined--	40.237	0.002055432		0.504095797				
5	--undefined--	41.927	0.002496656		5	--undefined--	39.973	0.001993687		0.443994342				
5.01	--undefined--	43.204	0.002892236		5.01	--undefined--	40.721	0.002173028		0.429005836				
5.02	--undefined--	44.698	0.003434961		5.02	--undefined--	40.741	0.00217819		0.388051182				
5.03	--undefined--	46.708	0.004329615		5.03	--undefined--	40.248	0.002057888		0.322174131				
5.04	--undefined--	49.143	0.005730147		5.04	--undefined--	40.038	0.002008843		0.259574295				
5.05	--undefined--	51.342	0.007380847		5.05	--undefined--	41.103	0.002270786		0.235274787				
5.06	--undefined--	52.772	0.008702159		5.06	--undefined--	43.153	0.002875228		0.248348638				
5.07	--undefined--	53.964	0.009982677		5.07	--undefined--	45.334	0.00369616		0.270210107				
5.08	--undefined--	56.305	0.013070426		5.08	--undefined--	49.156	0.005738732		0.30510309				
5.09	--undefined--	60.649	0.021550535		5.09	--undefined--	55.252	0.011578243		0.349491994				
5.1	--undefined--	69.846	0.062134633		5.1	--undefined--	65.557	0.037919949		0.378992626				
5.11	228.823	76.979	0.141250401		5.11	229.615	72.982	0.08915098		0.386937696				
5.12	223.363	80.729	0.217506966		5.12	223.056	77.071	0.142755017		0.396253348				
5.13	220.148	82.271	0.259768879		5.13	219.971	79.238	0.18320415		0.413578566				
5.14	215.865	82.589	0.269448052		5.14	215.98	80.51	0.212089116		0.440441839				
5.15	210.938	81.633	0.241357141		5.15	210.037	81.033	0.225264426		0.482756139				
5.16	204.618	78.633	0.170868563		5.16	201.283	81.121	0.227551795		0.571134959				
5.17	193.551	73.406	0.093609247		5.17	196.898	81.658	0.242058861		0.721125587				
5.18	194.207	69.366	0.058793517		5.18	194.579	82.234	0.258666497		0.814800244				
5.19	190.338	68.75	0.054767107		5.19	189.787	82.191	0.257396856		0.824556599				
5.2	184.337	68.103	0.050837021		5.2	183.013	81.456	0.236503455		0.823077411				
5.21	176.82	66.609	0.042804717		5.21	174.873	80.125	0.202906827		0.825792812				
5.22	168.215	64.432	0.033313864		5.22	166.657	78.509	0.168452219		0.834888683				
5.23	159.638	62.272	0.025980136		5.23	159.233	77.188	0.144693405		0.84777877				
5.24	154.41	61.303	0.023236163		5.24	154.391	76.458	0.133017663		0.851292198				
5.25	153.39	61.607	0.024065166		5.25	150.766	75.867	0.124267373		0.837762056				
5.26	145.144	61.565	0.02394946		5.26	145.118	74.973	0.112123127		0.823994971				
5.27	139.752	60.808	0.021948711		5.27	140.082	73.879	0.098851137		0.818305146				
5.28	138.625	60.4	0.020942121		5.28	138.065	73.109	0.090465225		0.812022085				
5.29	131.994	60.354	0.020833144		5.29	132.461	72.658	0.085883385		0.804780535				
5.3	129.893	61.532	0.023856689		5.3	129.526	71.9	0.078713609		0.767411335				
5.31	133.78	64.825	0.034856213		5.31	131.197	70.556	0.067426789		0.659217934				
5.32	134.42	67.566	0.047788606		5.32	135.013	69.133	0.057235854		0.544976419				
5.33	129.941	69.062	0.056772252		5.33	131.145	68.149	0.05110569		0.47373623				
5.34	127.01	69.753	0.061469492		5.34	127.081	67.512	0.047492612		0.435863573				
5.35	125.917	69.873	0.062325518		5.35	126.072	67.049	0.045025451		0.419422863				
5.36	124.374	69.547	0.060032411		5.36	124.059	67.014	0.044845562		0.427597532				
5.37	122.783	68.197	0.051389137		5.37	119.017	67.361	0.046677038		0.475974901				
5.38	--undefined--	64.494	0.033550984		5.38	109.706	67.454	0.047174916		0.584383898				
5.39	--undefined--	58.133	0.01613237		5.39	--undefined--	68.281	0.051890806		0.762840095				
5.4	--undefined--	54.988	0.011231747		5.4	121.893	70.268	0.065230464		0.853107222				
5.41	--undefined--	56.334	0.01311383		5.41	119.737	72.329	0.082694278		0.863124007				
5.42	123.347	57.873	0.015655295		5.42	123.497	74.172	0.10224686		0.867217904				
5.43	122.7	59.419	0.018705786		5.43	122.602	75.759	0.122732612		0.867746053				
5.44	125.127	61.225	0.023030417		5.44	124.958	77.148	0.144017721		0.86213305				
5.45	127.773	64.804	0.034773825		5.45	126.944	78.172	0.162034699		0.823311386				
5.46	134.78	69.174	0.05750979		5.46	130.989	78.365	0.165681878		0.742330032				
5.47	130.063	71.956	0.079222738		5.47	130.682	77.681	0.153131877		0.659043836				
5.48	128.089	72.829	0.087590906		5.48	128.088	76.958	0.140912823		0.616676251				
5.49	128.986	72.385	0.08322648		5.49	128.879	76.818	0.138660279		0.624914616				
5.5	128.358	70.857	0.069800189		5.5	127.922	77.073	0.142790887		0.671669242				
5.51	126.993	67.654	0.048273246		5.51	127.539	77.735	0.154092776		0.761455776				
5.52	127.033	62.971	0.028155095		5.52	130.726	78.681	0.171819561		0.859206683				
5.53	131.636	60.002	0.02000549		5.53	132.219	79.346	0.18548339		0.902644416				
5.54	132.304	59.76	0.019455456		5.54	132.59	79.591	0.190795344		0.907465483				
5.55	131.582	59.726	0.019378128		5.55	131.779	79.504	0.188896866		0.906958931				
5.56	131.759	59.292	0.018434412		5.56	131.888	79.133	0.181007983		0.907570241				
5.57	133.521	58.789	0.017397633		5.57	133.719	78.659	0.171379539		0.907840379				
5.58	132.597	58.322	0.01648638		5.58	132.943	78.079	0.160313099		0.90675097				
5.59	132.727	57.338	0.014720937		5.59	132.795	77.005	0.141678326		0.905875919				
5.6	133.059	55.591	0.012038919		5.6	133.066	75.277	0.116112298		0.906056928				
5.61	--undefined--	53.504	0.009467003		5.61	133.175	72.769	0.086995538		0.901858249				
5.62	--undefined--	53.395	0.009349182		5.62	133.006	69.139	0.057279387		0.859682081				
5.63	--undefined--	55.938	0.012529438		5.63	129.898	64.641	0.034124288		0.731437576				
5.64	--undefined--	55.912	0.012491547		5.64	126.519	60.45	0.021062985		0.627723992				
5.65	--undefined--	53.034	0.008969066		5.65	--undefined--	56.505	0.013374681		0.598587204				
5.66	--undefined--	55.591	0.01203918		5.66	--undefined--	55.24	0.011562261		0.489896391				
5.67	163.87	62.858	0.027792248		5.67	163.797	59.846	0.019649458		0.414181096				
5.68	160.327	69.044	0.056653066		5.68	161.241	65.205	0.036413354		0.391262002				
5.69	159.179	73.932	0.099454095		5.69	158.873	69.537	0.059964651		0.376145542				
5.7	162.451	77.456	0.149222065		5.7	162.587	72.782	0.087126808		0.368636444				
5.71	164.165	79.462	0.187996931		5.71	164.391	74.768	0.109506308		0.368084423				
5.72	163.154	80.087	0.202020471		5.72	163.279	75.536	0.11962396		0.371913667				
5.73	163.044	79.942	0.19865937		5.73	163.048	75.695	0.121840913		0.380158519				
5.74	162.394	79.579	0.190530207		5.74	162.403	75.778	0.123012098		0.392330145				
5.75	162.511	79.186	0.182107126		5.75	162.542	75.947	0.125430937		0.407855001				
5.76	162.209	78.739	0.17296662		5.76	162.313	76.198	0.129107112		0.427402644				
5.77	161.686	78.219	0.162927008		5.77	161.855	76.564	0.1346648		0.452515144				
5.78	160.781	77.643	0.152475739		5.78	160.952	76.944	0.14067601		0.479874367				
5.79	160.419	77.035	0.142153733		5.79	160.676	77.187	0.144663272		0.504374808				
5.8	159.164	76.451	0.132915791		5.8	159.393	77.312	0.146767901		0.524763885				
5.81	157.428	75.859	0.124154501		5.81	157.627	77.363	0.147626383		0.543181627				
5.82	155.378	75.236	0.115569693		5.82	155.527	77.319	0.146889663		0.559666323				
5.83	153.936	74.546	0.106744135		5.83	154.061	77.087	0.143019033		0.57261859				
5.84	152.168	73.952	0.099680452		5.84	152.32	76.845	0.139079134		0.582507017				
5.85	150.564	73.576	0.095467107		5.85	150.685	76.745	0.137498595		0.590209605				
5.86	148.229	73.217	0.091592313		5.86	148.318	76.605	0.135291147		0.596302381				
5.87	145.082	72.678	0.086090253		5.87	145.312	76.265	0.130098844		0.601782632				
5.88	143.148	71.999	0.079610083		5.88	143.301	75.706	0.121987146		0.605103288				
5.89	141.204	71.245	0.072995197		5.89	141.415	74.934	0.111612066		0.604591957				
5.9	138.814	70.45	0.066611868		5.9	139.038	74.07	0.101043843		0.602686556				
5.91	136.777	69.527	0.059893084		5.91	136.96	73.068	0.090035487		0.600522545				
5.92	135.217	68.651	0.054146012		5.92	135.331	72.046	0.080039776		0.596484748				
5.93	133.237	68.112	0.05088768		5.93	133.419	71.311	0.073551418		0.591063575				
5.94	131.593	68.027	0.050391754		5.94	131.612	71.12	0.071947375		0.588097817				
5.95	131.316	67.819	0.049200748		5.95	131.168	71.296	0.07342169		0.598762276				
5.96	127.206	66.409	0.041828164		5.96	126.331	71.558	0.075667916		0.644003747				
5.97	123.319	63.136	0.028695011		5.97	125.121	72.478	0.084127442		0.74566223				
5.98	124.703	58.712	0.017243176		5.98	127.92	73.754	0.097436069		0.849639958				
5.99	126.647	56.04	0.012676677		5.99	127.285	74.271	0.103411922		0.890801704				
6	127.064	55.357	0.011718115		6	127.451	74.105	0.101455695		0.896459128				
6.01	--undefined--	54.959	0.011193416		6.01	127.313	73.721	0.097074268		0.896613512				
6.02	--undefined--	54.299	0.010374706		6.02	127.157	72.976	0.089087624		0.895692104				
6.03	--undefined--	53.153	0.009092129		6.03	125.644	71.726	0.077146555		0.894570177				
6.04	--undefined--	51.914	0.007883853		6.04	125.884	70.353	0.06586956		0.893105251				
6.05	--undefined--	51.195	0.007257618		6.05	126.453	69.19	0.057613485		0.888122483				
6.06	--undefined--	49.982	0.006311752		6.06	126.128	67.531	0.047598905		0.882921995				
6.07	--undefined--	47.49	0.004737047		6.07	130.518	64.926	0.035264479		0.881578344				
6.08	--undefined--	44.941	0.003532475		6.08	132.922	62.54	0.026793654		0.883517116				
6.09	--undefined--	43.238	0.002903552		6.09	128.664	60.763	0.021836148		0.88263593				
6.1	--undefined--	41.606	0.002406276		6.1	127.464	57.843	0.01560185		0.866378311				
6.11	--undefined--	40.006	0.002001297		6.11	--undefined--	53.461	0.009421115		0.824792105				
6.12	--undefined--	39.039	0.001790584		6.12	--undefined--	49.895	0.006248416		0.777262823				
6.13	--undefined--	38.135	0.001613478		6.13	--undefined--	46.827	0.004389286		0.731210786				
										0.640445774				
